File: banzai_nres/data/thar_MM201006_noXX.dat
wavenumbercm-1	lambda_air	lambda_vac	intens	element	ionization_state	source
32955.5	3033.51	3034.39	2.953	Ar	II	W
32933.5	3035.54	3036.42	1.875	Th	II	P
32864.2	3041.94	3042.83	1.989	Th	I	P
32830.4	3045.07	3045.95	1.924	Th	II	P
32787.1	3049.09	3049.98	3.008	Th	II	P
32768.6	3050.82	3051.7	2.669	Ni	I	P
32758.1	3051.79	3052.68	2.084	Th	II	P
32691.3	3058.03	3058.92	2.64	Th	I	P
32665.6	3060.44	3061.33	3.537	Th	I	P
32609.7	3065.68	3066.57	2.442	Th	I	P
32603.8	3066.24	3067.13	1.888	Th	III	P
32587.9	3067.73	3068.62	3.15	Th	II	P
32541.4	3072.12	3073.01	3.027	Th	II	P
32510.3	3075.06	3075.95	2.872	Th	II	P
32486.2	3077.34	3078.23	2.396	Th	II	P
32479.9	3077.93	3078.83	2.226	Th	II	P
32459.3	3079.89	3080.78	2.013	Th	II	P
32437.2	3081.98	3082.88	2.627	Th	II	P
32423.4	3083.3	3084.19	2.511	Th	II	P
32317.492	3093.4	3094.3	2.893	Ar	II	W
32238.9	3100.94	3101.84	2.857	Th	II	P
32175.8	3107.03	3107.93	2.708	Th	II	P
32162.6	3108.3	3109.2	3.298	Th	II	P
32131.8	3111.28	3112.18	2.225	Th	I	P
32065.8	3117.68	3118.59	2.623	Th	II	P
31997	3124.39	3125.29	2.958	Th	II	P
31979.9	3126.05	3126.96	1.955	Th	II	P
31939.9	3129.97	3130.88	2.009	Th	II	P
31894.5	3134.43	3135.33	2.752	Th	II	P
31870.1	3136.83	3137.74	3.245	Th	I	P
31861.931	3137.63	3138.54	1.843	Ar	II	N
31835.152	3140.27	3141.18	3.332	Th	I	P
31809.2	3142.84	3143.75	2.853	Th	II	P
31776.8	3146.04	3146.95	2.822	Th	II	P
31732.3	3150.46	3151.37	2.675	Th	II	P
31724.9	3151.18	3152.1	2.058	Th	I	P
31678.2	3155.83	3156.74	2.469	Th	II	P
31650.3	3158.62	3159.53	2.055	Th	II	P
31619.5	3161.69	3162.6	2.05	Th	II	P
31583.5	3165.29	3166.21	2.113	Ar	II	W
31539.919	3169.67	3170.59	2.953	Ar	II	W
31502.6	3173.43	3174.34	3.396	Th	I	P
31494.8	3174.2	3175.12	2.665	Th	II	P
31479.8	3175.73	3176.64	2.964	Th	II	P
31454.8	3178.24	3179.16	3.492	Th	I	P
31435.5	3180.19	3181.11	3.623	Th	II	P
31413.7	3182.41	3183.33	2.111	Th	II	P
31395.2	3184.28	3185.2	2.382	Th	I	P
31328.2	3191.09	3192.02	2.384	Th	II	P
31307.9	3193.16	3194.08	2.11	Th	II	P
31301.8	3193.78	3194.7	2.54	Th	I	P
31283.1	3195.69	3196.61	3.457	Th	I	P
31207.9	3203.39	3204.32	1.543	Ar	II	N
31189.4	3205.29	3206.21	1.948	Th	II	P
31165.2	3207.78	3208.71	2.111	Th	II	P
31136.1	3210.78	3211.71	2.335	Th	I	P
31119.24	3212.52	3213.45	1.913	Ar	II	W
31101.2	3214.38	3215.31	3.019	Th	I	P
31043.6	3220.35	3221.28	2.541	Th	II	P
31023.8	3222.4	3223.33	1.973	Ar	II	W
30988	3226.12	3227.05	2.337	Th	II	P
30942.5	3230.87	3231.8	2.592	Th	II	P
30928.7	3232.31	3233.24	3.447	Th	I	P
30873.2	3238.12	3239.05	3.402	Th	II	P
30849.2	3240.64	3241.58	3.082	Th	I	P
30820.2	3243.69	3244.62	3.043	Ar	II	W
30813	3244.45	3245.38	3.58	Th	I	P
30798.3	3245.99	3246.93	2.328	Th	I	P
30766.6	3249.34	3250.28	1.853	Th	I	P
30725.5	3253.68	3254.62	3.01	Th	I	P
30721.9	3254.07	3255.01	2.902	Th	I	P
30701.1	3256.27	3257.21	3.075	Th	II	P
30690.8	3257.37	3258.31	3.648	Th	I	P
30673.1	3259.25	3260.18	2.051	Th	II	P
30636.1	3263.18	3264.12	2.751	Th	I	P
30600.277	3267	3267.94	2.508	Th	II	P
30571.298	3270.1	3271.04	2.339	Th	I	P
30553.3	3272.03	3272.97	3.655	Th	I	P
30531.1	3274.4	3275.35	1.919	Th	II	P
30519.6	3275.64	3276.59	1.873	Ar	II	W
30463.2	3281.7	3282.65	2.693	Ar	II	W
30427.9	3285.51	3286.46	2.571	Th	I	P
30406.8	3287.79	3288.74	3.121	Th	II	P
30380.8	3290.6	3291.55	2.529	Th	III	P
30359.4	3292.93	3293.87	2.054	Th	I	P
30318.425	3297.37	3298.32	2.235	Th	II	P
30312.2	3298.05	3299	3.155	Th	I	P
30245.7	3305.3	3306.26	3.154	Th	I	P
30210.7	3309.14	3310.09	2.162	Th	II	P
30197	3310.64	3311.59	2.602	Th	I	P
30174.8	3313.07	3314.02	2.413	Th	I	P
30112.6	3319.91	3320.87	2.922	Th	I	P
30092.8	3322.09	3323.05	2.938	Th	I	P
30065.4	3325.12	3326.08	3.52	Th	II	P
30046.72	3327.19	3328.15	3.231	Th	I	P
30017.095	3330.48	3331.43	4.075	Th	I	P
29979.9	3334.6	3335.56	3.127	Th	II	P
29950.6	3337.87	3338.83	3.093	Th	II	P
29925	3340.73	3341.69	2.884	Th	I	P
29897.4	3343.81	3344.77	1.736	Th	II	P
29865.3	3347.4	3348.37	2.187	Th	I	P
29831.228	3351.23	3352.19	3.419	Th	II	P
29805	3354.18	3355.14	2.821	Th	II	P
29789.1	3355.97	3356.94	1.714	Th	II	P
29777.9	3357.24	3358.2	1.865	Th	II	P
29750	3360.37	3361.34	2.279	Th	II	P
29742.8	3361.2	3362.16	2.89	Th	I	P
29707.9	3365.14	3366.1	2.744	Th	I	P
29631.267	3373.84	3374.81	1.543	Ar	II	N
29589.8	3378.57	3379.54	2.947	Th	II	P
29585.27	3379.09	3380.06	1.816	Th	II	P
29569.786	3380.86	3381.83	3.437	Th	I	P
29533.7	3384.99	3385.96	1.892	Th	II	P
29520.5	3386.5	3387.47	2.788	Th	II	P
29508.2	3387.92	3388.89	2.976	Th	I	P
29493.2	3389.64	3390.61	2.957	Th	II	P
29462	3393.23	3394.2	1.989	Th	II	P
29455.4	3393.99	3394.97	2.541	Th	I	P
29445.7	3395.11	3396.09	1.776	Th	II	P
29424.8	3397.52	3398.49	3.982	Th	I	P
29385.8	3402.03	3403	2.41	Th	II	P
29355.3	3405.56	3406.54	3.657	Th	I	P
29323.4	3409.27	3410.25	2.388	Th	II	P
29241.9	3418.78	3419.76	2.834	Th	II	P
29221	3421.21	3422.19	4.094	Th	I	P
29163.2	3427.99	3428.98	1.707	Th	II	P
29151.4	3429.39	3430.37	2.151	Th	II	P
29124.2	3432.58	3433.57	1.733	Ar	II	W
29095.5	3435.98	3436.96	3.466	Th	II	P
29070.3	3438.95	3439.94	2.849	Th	II	P
29049.9	3441.36	3442.35	2.345	Th	II	P
29039.7	3442.58	3443.57	3.38	Th	I	P
29017.4	3445.22	3446.2	2.473	Th	II	P
29006.2	3446.55	3447.54	2.833	Th	I	P
28983.2	3449.29	3450.28	2.273	Th	II	P
28962.9	3451.7	3452.69	3.538	Th	I	P
28942.852	3454.09	3455.08	2.943	Ar	II	W
28930.1	3455.61	3456.6	2.665	Th	I	P
28918	3457.07	3458.06	3.325	Th	I	P
28884.954	3461.02	3462.01	4.164	Th	I	P
28869.674	3462.85	3463.84	2.904	Th	II	P
28859	3464.13	3465.12	2.973	Ar	II	W
28835.981	3466.9	3467.89	2.071	Th	II	P
28815.6	3469.35	3470.34	3.866	Th	I	P
28805.5	3470.57	3471.56	2.951	Th	I	P
28796.9	3471.6	3472.59	1.393	Ar	II	N
28764.3	3475.54	3476.53	1.941	Th	II	P
28746.4	3477.7	3478.7	2.191	Th	II	P
28730	3479.68	3480.68	2.908	Th	I	P
28719.1	3481	3482	1.732	Th	II	P
28686.7	3484.94	3485.94	1.763	Th	I	P
28667.1	3487.32	3488.31	1.833	Ar	II	W
28651.8	3489.18	3490.18	2.926	Th	I	P
28637.9	3490.87	3491.87	2.713	Ar	II	W
28632.5	3491.54	3492.53	4.063	Ar	II	W
28598.4	3495.7	3496.7	3.423	Th	I	P
28582.2	3497.69	3498.69	1.978	Th	II	P
28551.4	3501.46	3502.46	2.471	Th	II	P
28518.491	3505.49	3506.5	2.224	Th	II	P
28509.1	3506.65	3507.65	2.374	Th	I	P
28483.7	3509.78	3510.78	3.713	Ar	II	W
28428.6	3516.58	3517.58	1.736	Th	II	P
28413.9	3518.4	3519.41	3.679	Th	I	P
28392.4	3521.06	3522.07	3.222	Th	I	P
28372.7	3523.51	3524.51	3.175	Th	I	P
28367.3	3524.18	3525.19	2.324	Th	I	P
28347.5	3526.63	3527.64	3.262	Th	I	P
28333.3	3528.41	3529.42	2.88	Th	I	P
28316.4	3530.51	3531.52	3.332	Th	I	P
28264.7	3536.98	3537.99	1.98	Th	I	P
28254.8	3538.21	3539.22	1.824	Th	II	P
28243.8	3539.59	3540.6	3.561	Th	II	P
28227.6	3541.62	3542.63	2.088	Th	II	P
28215.4	3543.15	3544.16	2.483	Ar	II	W
28196	3545.6	3546.61	4.013	Ar	II	W
28172.761	3548.51	3549.53	3.353	Ar	II	W
28158.6	3550.29	3551.31	1.944	Th	II	P
28136.3	3553.11	3554.13	2.544	Th	II	P
28121.3	3555.01	3556.03	3.507	Th	I	P
28111	3556.31	3557.33	1.904	Th	II	P
28073.7	3561.03	3562.05	4.073	Ar	II	W
28037.7	3565.6	3566.62	2.451	Th	I	P
28024.7	3567.26	3568.28	4.042	Th	I	P
28004.6	3569.82	3570.84	3.488	Th	I	P
27999.1	3570.52	3571.54	2.503	Th	I	P
27978	3573.22	3574.24	2.35	Th	II	P
27951.4	3576.62	3577.64	5.153	Ar	II	W
27943.727	3577.6	3578.62	2.279	Th	I	P
27933.2	3578.95	3579.97	2.705	Th	I	P
27909.327	3582.01	3583.03	2.488	Th	II	P
27892.5	3584.18	3585.2	3.55	Th	I	P
27849.1	3589.75	3590.77	3.528	Th	I	P
27840	3590.93	3591.95	2.629	Th	I	P
27835.9	3591.45	3592.48	3.596	Th	I	P
27815.4	3594.11	3595.14	2.027	Th	II	P
27803.7	3595.62	3596.64	3.212	Th	I	P
27781.2	3598.52	3599.55	2.422	Th	I	P
27766.5	3600.43	3601.46	2.815	Th	I	P
27745.2	3603.2	3604.23	2.799	Th	II	P
27719.6	3606.52	3607.55	3.812	Ar	I	N
27701.5	3608.88	3609.91	2.216	Th	I	P
27684	3611.16	3612.19	2.671	Th	I	P
27674.3	3612.43	3613.46	4.268	Th	I	P
27653.615	3615.13	3616.16	3.223	Th	II	P
27645.6	3616.18	3617.21	2.593	Th	I	P
27628.9	3618.36	3619.4	3.243	Th	I	P
27622.4	3619.21	3620.24	2.873	Th	I	P
27610	3620.84	3621.87	3.009	Th	I	P
27582.4	3624.47	3625.51	3.055	Th	I	P
27508.4	3634.21	3635.25	1.831	Th	II	P
27500.647	3635.24	3636.28	2.191	Th	II	P
27490.6	3636.57	3637.6	1.997	Th	II	P
27474.9	3638.64	3639.68	3.219	Th	I	P
27447.7	3642.25	3643.29	4.333	Th	I	P
27438.2	3643.51	3644.55	3.344	Th	I	P
27429.18	3644.71	3645.75	1.883	Th	II	P
27405	3647.93	3648.97	2.241	Th	I	P
27395.1	3649.25	3650.29	2.81	Th	II	P
27370.4	3652.54	3653.58	2.379	Th	II	P
27344.1	3656.05	3657.09	2.493	Ar	II	W
27336.6	3657.06	3658.1	2.533	Th	I	P
27317.4	3659.63	3660.67	4.28	Th	I	P
27290.7	3663.2	3664.25	3.838	Th	I	P
27262.6	3666.98	3668.03	3.211	Th	I	P
27232.7	3671	3672.05	2.333	Ar	II	W
27223.1	3672.3	3673.35	3.089	Th	I	P
27212.1	3673.79	3674.84	2.734	Th	II	P
27203.945	3674.89	3675.94	3.05	Th	I	P
27198.9	3675.57	3676.61	3.328	Th	II	P
27196	3675.96	3677.01	2.931	Th	I	P
27169.5	3679.54	3680.59	3.1	Th	I	P
27165.7	3680.06	3681.11	2.373	Ar	II	W
27140.4	3683.49	3684.54	2.491	Th	I	P
27125	3685.59	3686.64	2.303	Th	I	P
27107.4	3687.98	3689.03	2.951	Th	I	P
27086	3690.89	3691.95	2.912	Ar	I	N
27080.7	3691.61	3692.66	3.182	Th	I	P
27068.7	3693.25	3694.3	2.196	Th	I	P
27048.771	3695.97	3697.03	2.339	Th	II	P
27035.8	3697.74	3698.8	2.841	Th	I	P
27020.2	3699.88	3700.93	3.079	Th	I	P
27012.2	3700.98	3702.03	3.604	Th	I	P
26995.8	3703.23	3704.28	3.433	Th	I	P
26970	3706.77	3707.82	3.803	Th	I	P
26934.7	3711.62	3712.68	3.316	Th	I	P
26878.2	3719.43	3720.49	4.607	Th	I	P
26860.9	3721.83	3722.88	3.652	Th	II	P
26845.8	3723.92	3724.98	2.296	Th	I	P
26817.1	3727.9	3728.96	3.946	Th	I	P
26799.4	3730.37	3731.43	3.415	Th	I	P
26775.668	3733.67	3734.73	3.205	Th	I	P
26745.5	3737.89	3738.95	3.163	Ar	II	W
26724.3	3740.86	3741.92	2.37	Th	II	P
26709.5	3742.92	3743.99	3.926	Th	I	P
26676.6	3747.54	3748.6	2.787	Th	II	P
26639.3	3752.79	3753.86	2.423	Th	I	P
26626.5	3754.59	3755.66	2.794	Th	II	P
26614.4	3756.29	3757.36	3.023	Th	I	P
26599.033	3758.47	3759.54	3.572	Th	I	P
26576.1	3761.7	3762.77	2.538	Th	I	P
26542.7	3766.45	3767.52	2.568	Th	I	P
26517.3	3770.06	3771.13	3.648	Th	I	P
26501.9	3772.24	3773.31	2.133	Th	II	P
26491.3	3773.76	3774.83	2.459	Th	II	P
26426.5	3783.01	3784.09	2.576	Th	II	P
26408.4	3785.6	3786.68	2.644	Th	II	L
26392.122	3787.93	3789.01	1.813	Th	I	L
26372.2	3790.8	3791.87	3.237	Th	I	L
26351.204	3793.82	3794.89	2.055	Th	I	L
26345.1	3794.7	3795.78	2.444	Th	I	L
26321.5	3798.1	3799.18	2.813	Th	I	L
26305.7	3800.37	3801.45	1.856	Th	II	L
26291.6	3802.42	3803.5	2.12	Th	I	L
26275.8	3804.7	3805.78	1.983	Th	I	L
26253.9	3807.87	3808.96	2.669	Th	II	L
26243	3809.46	3810.54	3.275	Ar	II	L
26232.4	3811	3812.08	2.862	Th	I	L
26218.16	3813.07	3814.15	2.764	Th	II	L
26204.7	3815.03	3816.11	1.732	Th	II	L
26179.6	3818.69	3819.77	3.17	Th	I	L
26160.8	3821.43	3822.52	2.432	Th	II	L
26131.8	3825.67	3826.76	2.663	Ar	II	L
26124	3826.81	3827.89	2.855	Ar	II	L
26101.8	3830.06	3831.15	2.598	Th	I	L
26083.3	3832.79	3833.88	1.638	Th	II	L
26063.4	3835.71	3836.8	2.48	Th	I	L
26048.7	3837.88	3838.96	3.518	Th	I	L
26024	3841.52	3842.61	2.482	Ar	II	L
26017	3842.55	3843.64	1.797	Th	I	L
25997.7	3845.41	3846.5	2.941	Ar	II	L
25989.4	3846.63	3847.72	2.101	Th	I	L
25967.3	3849.91	3851	2.107	Th	I	L
25962.7	3850.58	3851.67	3.727	Ar	II	L
25946.7	3852.96	3854.05	1.619	Th	II	L
25916.1	3857.51	3858.6	1.967	Th	II	L
25853.1	3866.91	3868	2.548	Th	I	L
25834.7	3869.66	3870.76	2.922	Th	I	L
25811.5	3873.15	3874.25	3.029	Th	I	L
25804.2	3874.24	3875.34	3.317	Th	I	L
25794.8	3875.65	3876.75	2.533	Th	I	L
25769.6	3879.45	3880.55	2.166	Th	I	L
25755.9	3881.5	3882.6	1.758	Th	II	L
25750.5	3882.32	3883.42	1.685	Th	I	L
25727.6	3885.77	3886.87	2.267	Th	II	L
25688.3	3891.73	3892.83	2.286	Th	I	L
25675.6	3893.65	3894.76	2.35	Th	I	L
25668.9	3894.66	3895.76	2.128	Ar	I	L
25628	3900.88	3901.98	2.803	Th	II	L
25622.8	3901.66	3902.77	2.679	Th	I	L
25610.9	3903.48	3904.59	2.393	Th	I	L
25584.3	3907.54	3908.65	2.093	Th	I	L
25573.8	3909.14	3910.25	2.496	Th	I	L
25563.148	3910.77	3911.88	2.16	Th	I	L
25537.1	3914.77	3915.88	2.686	Ar	II	L
25526.3	3916.42	3917.53	3.771	Th	I	L
25517.5	3917.77	3918.88	1.659	Ar	II	L
25465.829	3925.72	3926.83	3.603	Ar	II	L
25458.4	3926.86	3927.98	2.044	Th	I	L
25447	3928.62	3929.74	3.578	Ar	II	L
25423.7	3932.23	3933.34	2.146	Th	II	L
25419.3	3932.91	3934.02	3.552	Th	I	L
25392.6	3937.04	3938.15	2.35	Th	II	L
25338.1	3945.51	3946.62	2.594	Th	II	L
25326.4	3947.33	3948.45	3.031	Th	I	L
25306.8	3950.4	3951.51	4.173	Th	I	L
25252.222	3958.93	3960.05	1.852	Th	I	L
25230	3962.42	3963.54	2.724	Th	I	L
25198.3	3967.39	3968.51	3.949	Th	I	L
25188.1	3969	3970.13	2.863	Th	II	L
25165.1	3972.64	3973.76	2.952	Th	I	L
25141.2	3976.41	3977.54	2.422	Th	II	L
25113.8	3980.75	3981.88	2.336	Th	II	L
25107	3981.83	3982.95	2.424	Th	I	L
25092.7	3984.09	3985.22	2.089	Th	I	L
25087.8	3984.88	3986.01	2.569	Th	I	L
25062.825	3988.85	3989.97	2.275	Th	II	L
25044.7	3991.73	3992.86	3.031	Th	I	L
25041.3	3992.27	3993.4	2.115	Th	II	L
25025.5	3994.79	3995.92	3.655	Ar	II	L
25013.8	3996.67	3997.8	2.345	Th	I	L
24991.2	4000.28	4001.41	2.837	Th	I	L
24986.3	4001.06	4002.19	3.317	Th	I	L
24973.5	4003.11	4004.24	2.343	Th	II	L
24955.7	4005.96	4007.09	2.326	Th	I	L
24941.7	4008.21	4009.34	3.623	Th	I	L
24917	4012.19	4013.33	1.845	Th	I	L
24901.3	4014.72	4015.85	3.049	Th	I	L
24866.4	4020.35	4021.49	2.681	Th	I	L
24857.8	4021.75	4022.89	2.207	Th	I	L
24807.956	4029.83	4030.96	3.019	Th	I	L
24780.8	4034.25	4035.39	2.468	Th	II	L
24769.7	4036.05	4037.19	4.394	Th	I	L
24756.3	4038.23	4039.37	2.793	Th	I	L
24752.8	4038.8	4039.95	2.578	Ar	II	L
24738.1	4041.2	4042.35	2.758	Th	II	L
24724.7	4043.4	4044.54	3.678	Th	I	L
24715.3	4044.93	4046.07	2.367	Th	I	L
24709	4045.97	4047.11	2.609	Ar	I	L
24703.8	4046.83	4047.97	1.881	Th	I	L
24684.7	4049.94	4051.09	3.199	Th	I	L
24666.6	4052.92	4054.07	4.033	Ar	II	L
24656.829	4054.53	4055.67	2.391	Ar	I	L
24644	4056.64	4057.78	1.795	Th	I	L
24628.1	4059.25	4060.4	3.413	Th	I	L
24602.9	4063.41	4064.55	3.54	Th	I	L
24587.9	4065.89	4067.04	1.631	Th	I	L
24578.5	4067.45	4068.6	3.221	Th	I	L
24572.3	4068.47	4069.62	1.671	Th	I	L
24564.5	4069.76	4070.91	1.956	Th	II	L
24548.7	4072.38	4073.53	3.658	Ar	II	L
24529.9	4075.5	4076.65	3.475	Th	I	L
24523.1	4076.63	4077.78	3.326	Ar	II	L
24494.7	4081.37	4082.52	3.143	Th	I	L
24482.1	4083.47	4084.62	3.414	Th	I	L
24470.3	4085.43	4086.59	3.167	Th	I	L
24448.1	4089.14	4090.29	3.259	Th	I	L
24421.1	4093.67	4094.83	2.957	Th	I	L
24406.7	4096.08	4097.23	3.002	Th	I	L
24389.7	4098.93	4100.09	2.68	Th	II	L
24381.3	4100.34	4101.5	4.183	Th	I	L
24366.6	4102.82	4103.98	2.164	Th	I	L
24333.4	4108.42	4109.58	3.608	Th	II	L
24297.5	4114.49	4115.65	1.662	Ar	II	L
24284.4	4116.71	4117.87	3.655	Th	II	L
24247.5	4122.97	4124.13	1.783	Th	II	L
24200.4	4131	4132.17	3.662	Th	I	L
24174.2	4135.48	4136.65	2.842	Th	I	L
24132	4142.7	4143.87	3.412	Th	II	L
24103.878	4147.54	4148.71	2.256	Th	I	L
24082.9	4151.15	4152.32	2.158	Th	I	L
24054.3	4156.09	4157.26	3.245	Ar	II	L
24021.6	4161.74	4162.91	2.732	Th	I	L
23998.4	4165.77	4166.94	3.751	Th	I	L
23986.3	4167.87	4169.04	2.347	Th	I	L
23970.993	4170.53	4171.71	3.847	Th	I	L
23927.8	4178.06	4179.24	3.241	Th	II	L
23912.6	4180.72	4181.9	2.213	Th	I	L
23893.1	4184.14	4185.32	2.737	Th	I	L
23849.2	4191.83	4193.01	2.262	Th	II	L
23842.5	4193.02	4194.2	3.43	Th	I	L
23831.6	4194.94	4196.12	3.358	Th	I	L
23759.8	4207.61	4208.8	2.139	Th	I	L
23743.7	4210.46	4211.64	2.391	Th	I	L
23737.741	4211.51	4212.7	1.949	Th	II	L
23716.9	4215.21	4216.4	1.262	Th	I	L
23713.3	4215.85	4217.04	2.168	Th	I	L
23689.6	4220.07	4221.26	3.035	Th	I	L
23683.5	4221.15	4222.34	2.235	Th	I	L
23675.2	4222.64	4223.83	3.398	Ar	II	L
23650.8	4226.99	4228.18	3.523	Ar	II	L
23644.3	4228.16	4229.35	3.978	Ar	II	L
23637.1	4229.45	4230.65	2.47	Th	II	L
23629.4	4230.82	4232.01	2.666	Th	I	L
23612.2	4233.91	4235.1	1.877	Th	I	L
23572.2	4241.09	4242.29	2.904	Th	I	L
23563.2	4242.72	4243.91	2.151	Th	II	L
23543.2	4246.32	4247.52	1.87	Th	I	L
23503.2	4253.54	4254.74	3.207	Th	I	L
23475.7	4258.52	4259.72	3.32	Th	I	L
23460.6	4261.28	4262.47	2.393	Th	II	L
23445	4264.11	4265.31	2.07	Th	II	L
23431.7	4266.53	4267.73	3.922	Ar	II	L
23412.9	4269.94	4271.14	2.977	Th	I	L
23408.6	4270.73	4271.94	2.23	Th	I	L
23394.2	4273.36	4274.56	3.496	Th	II	L
23367.1	4278.32	4279.53	3.287	Th	I	L
23359.9	4279.64	4280.84	1.831	Th	I	L
23352.1	4281.07	4282.27	3.271	Th	II	L
23342.1	4282.9	4284.1	3.371	Ar	II	L
23325.5	4285.94	4287.15	2.088	Th	I	L
23310.7	4288.67	4289.88	3.212	Th	I	L
23290.9	4292.31	4293.51	2.165	Th	I	L
23271.9	4295.82	4297.02	2.329	Th	I	L
23251.3	4299.63	4300.84	3.114	Th	I	L
23245.8	4300.65	4301.86	3.576	Ar	II	L
23210.5	4307.18	4308.39	3.641	Th	I	L
23185.7	4311.8	4313.01	3.288	Th	I	L
23167.1	4315.25	4316.47	3.84	Th	I	L
23150.1	4318.42	4319.63	3.446	Th	II	L
23132.4	4321.73	4322.94	1.642	Th	I	L
23100.4	4327.72	4328.93	2.492	Th	I	L
23086	4330.41	4331.63	2.655	Th	I	L
23077.4	4332.03	4333.25	3.617	Ar	II	L
23067.2	4333.94	4335.16	2.034	Th	II	L
23030.2	4340.9	4342.12	3.333	Th	I	L
23022	4342.44	4343.66	3.788	Th	I	L
23017.1	4343.38	4344.6	2.727	Th	I	L
23012.1	4344.33	4345.55	3.479	Th	II	L
22984	4349.63	4350.85	1.976	Th	I	L
22958.4	4354.48	4355.71	2.805	Th	I	L
22950.2	4356.04	4357.27	2.657	Th	I	L
22938.2	4358.32	4359.55	3.317	Th	I	L
22928.5	4360.17	4361.39	2.705	Th	I	L
22916.3	4362.47	4363.7	2.592	Th	I	L
22898.2	4365.93	4367.16	3.788	Th	I	L
22863.8	4372.49	4373.72	2.517	Ar	II	L
22828.7	4379.21	4380.44	2.6	Ar	II	L
22823.1	4380.29	4381.52	2.754	Th	I	L
22798.3	4385.06	4386.29	4.015	Ar	II	L
22766.9	4391.11	4392.34	4.137	Th	II	L
22753.161	4393.76	4394.99	2.965	Th	I	L
22739.1	4396.48	4397.71	2.694	Th	II	L
22718.9	4400.39	4401.62	2.26	Th	II	L
22705.8	4402.93	4404.16	4.043	Th	I	L
22669.9	4409.9	4411.14	2.854	Th	I	L
22637.4	4416.24	4417.48	2.66	Th	II	L
22619.3	4419.77	4421.01	2.253	Th	I	L
22601.4	4423.26	4424.5	2.033	Th	I	L
22561.952	4431	4432.24	3.873	Ar	II	L
22555.6	4432.25	4433.5	3.309	Th	I	L
22549.3	4433.49	4434.74	2.741	Th	I	L
22535.1	4436.28	4437.53	2.508	Th	II	L
22520.6	4439.12	4440.37	2.826	Th	II	L
22513.3	4440.57	4441.82	3.223	Th	II	L
22479.6	4447.23	4448.48	2.519	Th	I	L
22468	4449.52	4450.77	2.46	Ar	II	L
22456.819	4451.74	4452.99	1.847	Th	I	L
22444.7	4454.14	4455.39	2.295	Th	I	L
22429.1	4457.24	4458.49	2.679	Th	I	L
22412.4	4460.56	4461.81	3.029	Ar	II	L
22407.6	4461.53	4462.78	3.734	Th	I	L
22394.5	4464.14	4465.39	2.174	Th	I	L
22373.5	4468.32	4469.57	2.626	Th	I	L
22367.5	4469.53	4470.78	3.486	Th	I	L
22339	4475.22	4476.48	3.674	Th	I	L
22329.1	4477.21	4478.47	1.907	Th	I	L
22313.833	4480.27	4481.52	2.007	Th	I	L
22298.5	4483.35	4484.61	3.497	Th	I	L
22280.9	4486.9	4488.16	4.046	Th	I	L
22273.8	4488.31	4489.57	2.848	Th	I	L
22267.1	4489.66	4490.92	3.361	Th	I	L
22242.2	4494.69	4495.95	2.592	Th	I	L
22223.205	4498.54	4499.8	3.087	Ar	II	L
22216.1	4499.98	4501.25	3.741	Th	I	L
22193.2	4504.63	4505.89	2.331	Th	I	L
22150.904	4513.22	4514.49	3.4	Th	I	L
22141.6	4515.12	4516.38	4.227	Th	I	L
22121.3	4519.26	4520.53	3.517	Th	I	L
22094.041	4524.84	4526.11	2.565	Th	II	L
22088.2	4526.03	4527.3	1.972	Th	II	L
22067.3	4530.32	4531.59	3.328	Th	I	L
22057.9	4532.26	4533.53	2.756	Th	II	L
22047.4	4534.4	4535.67	2.133	Th	I	L
22039.8	4535.98	4537.25	2.755	Th	I	L
22015.414	4541	4542.27	3.833	Th	I	L
21982.7	4547.76	4549.03	2.97	Ar	II	L
21972.7	4549.83	4551.11	2.186	Th	I	L
21928.2	4559.06	4560.34	2.308	Th	I	L
21921.8	4560.39	4561.67	1.854	Th	II	L
21913.7	4562.08	4563.36	2.697	Th	I	L
21902.5	4564.41	4565.69	3.263	Ar	II	L
21888.9	4567.24	4568.52	3.673	Th	I	L
21882.8	4568.52	4569.8	2.55	Th	I	L
21871.1	4570.97	4572.25	3.879	Th	I	L
21866.3	4571.96	4573.24	2.432	Th	I	L
21855.1	4574.31	4575.59	2.311	Th	I	L
21828.8	4579.83	4581.11	3.409	Th	I	L
21810.5	4583.65	4584.94	2.087	Th	II	L
21767.7	4592.67	4593.95	3.811	Th	I	L
21740.4	4598.44	4599.73	2.096	Th	I	L
21734.4	4599.7	4600.99	2.813	Th	I	L
21719.4	4602.89	4604.18	2.665	Th	II	L
21711.1	4604.65	4605.94	1.806	Th	II	L
21692.4	4608.62	4609.91	3.292	Th	I	L
21673.9	4612.54	4613.84	2.801	Th	I	L
21662.3	4615.02	4616.32	3.182	Th	I	L
21655.6	4616.45	4617.75	2.373	Th	I	L
21637.8	4620.24	4621.54	2.836	Th	I	L
21618.8	4624.31	4625.61	3.104	Th	I	L
21613.3	4625.49	4626.79	2.554	Th	I	L
21600.6	4628.2	4629.5	3.419	Th	I	L
21554.4	4638.13	4639.42	2.803	Th	I	L
21523.9	4644.71	4646.01	2.942	Th	I	L
21499.5	4649.98	4651.28	2.6	Th	I	L
21490.2	4651.99	4653.29	3.132	Th	II	L
21441.3	4662.59	4663.9	2.721	Th	I	L
21430.4	4664.97	4666.28	2.762	Th	I	L
21422	4666.8	4668.11	3.676	Th	I	L
21407.356	4669.98	4671.29	4.046	Th	I	L
21354.7	4681.5	4682.81	1.903	Ar	II	L
21346.3	4683.35	4684.66	3.553	Th	I	L
21331.6	4686.57	4687.88	2.119	Th	II	L
21313.2	4690.62	4691.94	3.755	Th	I	L
21297.4	4694.09	4695.41	3.852	Th	II	L
21281.5	4697.6	4698.91	1.814	Th	I	L
21233.176	4708.29	4709.61	3.5	Th	I	L
21204.5	4714.67	4715.99	2.537	Th	I	L
21183	4719.44	4720.76	2.509	Th	I	L
21177	4720.78	4722.1	2.709	Th	I	L
21173.4	4721.59	4722.91	3.231	Ar	II	L
21163.5	4723.78	4725.11	3.837	Th	II	L
21142.023	4728.59	4729.92	2.092	Th	I	L
21136.3	4729.88	4731.2	2.874	Th	II	L
21131.8	4730.88	4732.2	2.606	Th	II	L
21117.7	4734.05	4735.37	2.707	Th	I	L
21092.6	4739.68	4741	3.711	Th	I	L
21050.3	4749.2	4750.53	4.041	Th	I	L
20997.6	4761.11	4762.44	2.904	Th	II	L
20991.4	4762.52	4763.86	2.546	Th	II	L
20977.9	4765.6	4766.93	3.426	Th	I	L
20971.9	4766.96	4768.29	1.993	Th	II	L
20933.1	4775.79	4777.13	3.311	Th	I	L
20926.9	4777.19	4778.53	3.295	Th	I	L
20902.6	4782.76	4784.1	3.107	Th	II	L
20886.1	4786.53	4787.87	3.41	Th	I	L
20873.7	4789.39	4790.73	4.188	Th	I	L
20856.9	4793.24	4794.58	3.215	Th	I	L
20845.3	4795.91	4797.25	3.322	Th	I	L
20822.9	4801.05	4802.39	2.197	Th	I	L
20810.4	4803.96	4805.3	2.494	Th	II	L
20773.9	4812.38	4813.72	3.195	Th	I	L
20748.4	4818.3	4819.64	2.035	Th	I	L
20744.6	4819.19	4820.54	3.233	Th	I	L
20725.6	4823.61	4824.95	3.906	Th	I	L
20721.1	4824.65	4826	2.348	Th	II	L
20699	4829.8	4831.15	3.17	Th	I	L
20691.307	4831.6	4832.95	3.871	Th	I	L
20665.224	4837.7	4839.05	1.894	Th	II	L
20633.4	4845.16	4846.52	3.394	Th	I	L
20619.8	4848.36	4849.72	4.171	Th	I	L
20610.9	4850.44	4851.79	3.689	Th	II	L
20560.1	4862.43	4863.79	1.985	Th	I	L
20522.7	4871.29	4872.65	3.597	Th	I	L
20500.8	4876.5	4877.86	3.128	Th	I	L
20491.4	4878.73	4880.1	4.423	Th	I	L
20479.4	4881.6	4882.96	2.375	Th	I	L
20476.7	4882.24	4883.61	3.166	Ar	II	L
20451.5	4888.26	4889.63	2.396	Ar	II	L
20444.8	4889.86	4891.22	2.37	Th	II	L
20432.7	4892.76	4894.13	3.286	Th	I	L
20428.7	4893.71	4895.07	2.064	Th	I	L
20369.2	4908.01	4909.38	1.957	Th	I	L
20360.3	4910.16	4911.53	3.63	Th	I	L
20350.4	4912.53	4913.9	3.338	Th	II	L
20320.3	4919.82	4921.19	4.365	Th	II	L
20282.1	4929.09	4930.46	3.009	Th	I	L
20265.1	4933.21	4934.59	3.922	Ar	II	L
20238.7	4939.64	4941.02	4.139	Th	I	L
20224.7	4943.06	4944.44	4.058	Th	I	L
20195.4	4950.25	4951.63	2.956	Th	I	L
20185.4	4952.69	4954.07	2.797	Th	I	L
20163.4	4958.1	4959.48	2.774	Th	I	L
20148.7	4961.73	4963.11	3.155	Th	I	L
20132.4	4965.73	4967.12	3.563	Th	I	L
20120.149	4968.76	4970.14	3.196	Th	II	L
20074	4980.19	4981.58	3.558	Th	I	L
20064.7	4982.49	4983.88	3.82	Th	I	L
20050.8	4985.95	4987.34	2.721	Th	I	L
20045.953	4987.15	4988.54	2.874	Th	II	L
20026	4992.13	4993.52	2.643	Th	I	L
20019.4	4993.75	4995.14	3.394	Th	I	L
20005.1	4997.33	4998.72	1.835	Th	II	L
19993.4	5000.25	5001.64	2.698	Th	I	L
19982.9	5002.89	5004.29	2.21	Th	I	L
19970.6	5005.98	5007.37	2.228	Th	I	L
19957.2	5009.34	5010.73	3.971	Ar	II	L
19948.6	5011.48	5012.88	2.65	Th	I	L
19936.8	5014.45	5015.85	2.105	Th	I	L
19915.5	5019.81	5021.21	3.969	Th	I	L
19901	5023.48	5024.88	2.55	Th	I	L
19891.541	5025.86	5027.26	1.97	Th	II	L
19876.6	5029.63	5031.03	2.708	Th	II	L
19862.1	5033.31	5034.72	1.81	Th	II	L
19838.8	5039.23	5040.64	4.311	Th	I	L
19821.9	5043.52	5044.92	2.69	Th	I	L
19815.1	5045.25	5046.66	3.603	Th	I	L
19806.6	5047.43	5048.83	2.637	Th	II	L
19791.2	5051.34	5052.75	2.066	Th	II	L
19785.3	5052.86	5054.27	1.66	Th	I	L
19757.9	5059.86	5061.27	3.816	Th	I	L
19745.9	5062.93	5064.34	3.067	Th	I	L
19739.4	5064.6	5066.01	4.121	Th	I	L
19737.1	5065.19	5066.6	3.913	Th	I	L
19730.9	5066.78	5068.19	3.241	Th	I	L
19721	5069.33	5070.75	2.84	Th	I	L
19700.3	5074.65	5076.06	2.688	Th	I	L
19692.8	5076.59	5078.01	1.741	Th	II	L
19674	5081.45	5082.86	3.312	Th	I	L
19660.2	5084.99	5086.41	3.101	Th	I	L
19640.7	5090.05	5091.47	2.894	Th	I	L
19611.4	5097.65	5099.07	1.671	Th	I	L
19598	5101.13	5102.55	3.347	Th	I	L
19565	5109.73	5111.16	2.74	Th	I	L
19544.7	5115.04	5116.47	4.338	Th	I	L
19504.9	5125.49	5126.92	2.944	Th	I	L
19486.9	5130.23	5131.66	2.561	Th	I	L
19459.4	5137.47	5138.91	3.32	Th	I	L
19429.8	5145.31	5146.74	3.867	Ar	II	L
19418.8	5148.21	5149.65	3.047	Th	II	L
19396.1	5154.24	5155.68	4.216	Th	I	L
19368.7	5161.54	5162.98	3.792	Th	I	L
19361.5	5163.46	5164.9	4.16	Th	I	L
19342.3	5168.59	5170.03	2.943	Th	I	L
19317.1	5175.33	5176.77	3.595	Th	I	L
19305.3	5178.48	5179.92	2.813	Th	I	L
19297	5180.72	5182.16	2.587	Th	I	L
19283.1	5184.45	5185.9	3.079	Th	I	L
19268.5	5188.37	5189.81	2.482	Th	II	L
19245.93	5194.46	5195.9	3.776	Th	I	L
19235.6	5197.24	5198.68	2.808	Th	I	L
19206.4	5205.15	5206.6	3.284	Th	I	L
19184	5211.23	5212.68	4.402	Th	I	L
19178.641	5212.68	5214.13	1.978	Th	I	L
19157.2	5218.53	5219.98	3.028	Th	II	L
19148.4	5220.93	5222.38	3.273	Th	I	L
19143.5	5222.26	5223.72	2.217	Th	I	L
19118.8	5228.99	5230.45	2.755	Th	I	L
19103.4	5233.23	5234.68	3.27	Th	II	L
19087.3	5237.63	5239.09	2.081	Th	II	L
19077.9	5240.2	5241.66	3.468	Th	II	L
19068.898	5242.68	5244.14	1.871	Th	I	L
19044	5249.55	5251.01	2.384	Ar	II	L
19018.5	5256.56	5258.03	2.286	Ar	II	L
19006.9	5259.78	5261.24	2.728	Th	I	L
18981.9	5266.71	5268.18	4.13	Th	I	L
18960.5	5272.64	5274.11	2.328	Th	II	L
18955.2	5274.12	5275.59	3.861	Th	I	L
18947.013	5276.41	5277.88	2.599	Th	II	L
18930.3	5281.07	5282.54	3.816	Th	I	L
18917.9	5284.54	5286.01	2.105	Th	II	L
18891.8	5291.82	5293.29	3.411	Th	I	L
18883.8	5294.07	5295.54	2.049	Th	I	L
18880.2	5295.09	5296.56	2.693	Th	I	L
18868.8	5298.28	5299.76	3.896	Th	I	L
18865.9	5299.08	5300.56	2.109	Ar	II	L
18857.7	5301.4	5302.88	2.696	Th	II	L
18719.6	5340.5	5341.98	2.839	Th	I	L
18705.5	5344.52	5346.01	2.283	Ar	II	L
18693.5	5347.97	5349.46	3.488	Th	I	L
18685.7	5350.21	5351.69	1.885	Th	I	L
18670.3	5354.6	5356.09	3.178	Th	I	L
18656	5358.71	5360.2	2.814	Th	I	L
18651	5360.15	5361.64	3.836	Th	I	L
18643.7	5362.25	5363.75	2.598	Th	II	L
18628.2	5366.71	5368.2	2.02	Th	I	L
18607.4	5372.7	5374.2	3.288	Th	I	L
18596.8	5375.77	5377.26	2.902	Th	II	L
18586.2	5378.84	5380.33	3.607	Th	I	L
18572.1	5382.93	5384.42	3.346	Th	II	L
18559.4	5386.61	5388.11	4.18	Th	I	L
18544	5391.08	5392.58	2.596	Th	II	L
18535.3	5393.6	5395.1	2.593	Ar	II	L
18526.7	5396.11	5397.61	2.381	Th	I	L
18519.5	5398.21	5399.71	2.761	Th	I	L
18514.7	5399.62	5401.12	2.836	Th	I	L
18504.4	5402.61	5404.11	3.037	Ar	II	L
18495.5	5405.21	5406.71	2.056	Th	II	L
18488.229	5407.34	5408.85	3.18	Ar	II	L
18476.5	5410.77	5412.27	4.073	Th	I	L
18431.4	5424.01	5425.52	3.832	Th	I	L
18423.3	5426.41	5427.92	3.14	Th	I	L
18407.3	5431.11	5432.62	4.07	Th	I	L
18397	5434.15	5435.66	3.648	Th	I	L
18389.1	5436.5	5438.01	2.236	Th	II	L
18375.2	5440.6	5442.11	3.329	Th	I	L
18349.3	5448.27	5449.79	2.312	Th	I	L
18338	5451.65	5453.17	3.572	Ar	I	L
18329	5454.31	5455.82	2.97	Ar	II	L
18302.1	5462.34	5463.86	2.523	Th	I	L
18298.8	5463.32	5464.84	2.35	Th	I	L
18295.8	5464.21	5465.72	3.95	Th	I	L
18271.8	5471.39	5472.91	1.751	Th	II	L
18246.2	5479.07	5480.6	3.138	Th	I	L
18238.2	5481.48	5483	1.988	Th	II	L
18218.1	5487.51	5489.03	1.941	Th	I	L
18199.3	5493.2	5494.73	3.483	Th	I	L
18190.4	5495.88	5497.4	3.789	Ar	I	L
18177.9	5499.65	5501.18	3.378	Th	I	L
18170.3	5501.94	5503.47	2.888	Th	II	L
18153.929	5506.92	5508.45	2.717	Th	I	L
18148.5	5508.56	5510.09	3.167	Th	I	L
18134.9	5512.7	5514.23	2.017	Th	I	L
18127.7	5514.87	5516.41	4.028	Th	I	L
18105.2	5521.75	5523.29	2.861	Th	I	L
18094.7	5524.96	5526.49	3.034	Ar	I	L
18081.1	5529.1	5530.63	2.545	Th	I	L
18075.9	5530.7	5532.23	2.667	Th	II	L
18053.5	5537.56	5539.09	3.278	Th	I	L
18045.8	5539.91	5541.45	3.836	Th	II	L
18039.2	5541.94	5543.48	2.635	Th	I	L
18036.1	5542.89	5544.43	3.793	Th	I	L
18026.6	5545.81	5547.35	2.617	Th	I	L
18022.3	5547.13	5548.68	2.569	Th	I	L
17995.1	5555.53	5557.07	2.918	Th	I	L
17990.178	5557.05	5558.59	4.11	Th	I	L
17981	5559.89	5561.44	4.019	Th	I	L
17941.6	5572.09	5573.64	2.441	Th	I	L
17918.2	5579.36	5580.91	4.197	Th	I	L
17914.9	5580.39	5581.94	2.334	Th	I	L
17908.6	5582.37	5583.92	2.881	Th	I	L
17873.7	5593.27	5594.82	2.386	Th	II	L
17860.2	5597.48	5599.03	2.967	Ar	I	L
17847.1	5601.6	5603.16	4.274	Th	I	L
17837.8	5604.52	5606.07	3.902	Th	II	L
17818.2	5610.68	5612.24	3.874	Th	I	L
17812.1	5612.62	5614.17	2.824	Th	I	L
17770.701	5625.68	5627.24	2.632	Ar	II	L
17756.1	5630.3	5631.86	2.969	Th	I	L
17746.7	5633.29	5634.86	3.44	Th	I	L
17715.8	5643.11	5644.68	2.185	Th	I	L
17701.4	5647.71	5649.27	2.705	Th	I	L
17697.4	5648.99	5650.56	3.938	Th	I	L
17677	5655.49	5657.06	2.316	Th	I	L
17669.4	5657.93	5659.5	3.753	Th	I	L
17648.5	5664.62	5666.19	3.275	Th	I	L
17645.4	5665.63	5667.2	3.392	Th	II	L
17640.7	5667.13	5668.7	3.61	Th	I	L
17609.9	5677.05	5678.63	3.929	Th	I	L
17579.469	5686.88	5688.45	2.515	Th	I	L
17567.7	5690.69	5692.27	2.495	Th	I	L
17544.2	5698.29	5699.88	3.265	Th	I	L
17530.8	5702.65	5704.23	3.068	Th	I	L
17517.2	5707.1	5708.69	4.119	Th	II	L
17490.7	5715.72	5717.31	2.672	Th	I	L
17485.238	5717.52	5719.11	2.315	Th	I	L
17473.3	5721.42	5723.01	2.67	Th	I	L
17461.221	5725.39	5726.98	4.161	Th	I	L
17447.2	5729.98	5731.57	2.662	Th	I	L
17419.9	5738.96	5740.56	2.489	Th	I	L
17413.2	5741.17	5742.76	3.089	Th	II	L
17399.6	5745.67	5747.27	2.335	Th	II	L
17388.3	5749.39	5750.98	3.811	Th	II	L
17377.3	5753.03	5754.62	4.205	Th	I	L
17332.9	5767.78	5769.38	3.43	Th	I	L
17330.3	5768.63	5770.23	2.146	Th	I	L
17307.7	5776.17	5777.77	2.886	Th	I	L
17285.7	5783.54	5785.14	2.501	Ar	I	L
17259.1	5792.43	5794.04	4.188	Th	I	L
17244.6	5797.32	5798.93	3.383	Th	I	L
17234.1	5800.83	5802.44	4.5	Th	I	L
17219.7	5805.7	5807.31	2.917	Th	I	L
17201.5	5811.84	5813.46	2.571	Th	I	L
17190.9	5815.42	5817.03	3.974	Th	II	L
17179.9	5819.13	5820.74	2.673	Th	I	L
17169.129	5822.79	5824.41	2.968	Th	I	L
17150.5	5829.11	5830.73	2.703	Th	I	L
17140.9	5832.37	5833.99	3.854	Th	I	L
17121.6	5838.95	5840.57	3.143	Th	II	L
17116.7	5840.64	5842.26	3.489	Th	I	L
17081.5	5852.68	5854.3	3.997	Th	I	L
17077.3	5854.12	5855.74	3.93	Th	I	L
17049.3	5863.72	5865.34	3.925	Th	I	L
17035.8	5868.37	5870	3.127	Th	I	L
17027.6	5871.18	5872.81	3.447	Th	I	L
17018.4	5874.35	5875.98	2.888	Th	II	L
16994.5	5882.62	5884.25	3.596	Ar	I	L
16985.6	5885.7	5887.33	4.187	Th	I	L
16978.231	5888.26	5889.9	2.79	Th	II	L
16959.7	5894.7	5896.33	2.919	Th	I	L
16956.2	5895.92	5897.56	3.948	Na	I	L
16944.9	5899.84	5901.48	3.68	Th	I	L
16929.6	5905.18	5906.81	2.81	Th	I	L
16912.3	5911.23	5912.87	3.21	Th	I	L
16890.2	5918.95	5920.59	3.674	Th	I	L
16869.5	5926.23	5927.87	4.17	Th	I	L
16857.9	5930.31	5931.95	2.042	Th	I	L
16839.2	5936.87	5938.52	2.793	Th	I	L
16828.8	5940.57	5942.21	2.694	Th	I	L
16812.7	5946.24	5947.88	2.737	Th	I	L
16791.959	5953.58	5955.23	2.574	Th	I	L
16784.4	5956.26	5957.91	2.939	Th	I	L
16761.3	5964.47	5966.13	2.475	Ar	I	L
16750.496	5968.32	5969.97	2.632	Ar	I	L
16731.6	5975.07	5976.72	4.422	Th	I	L
16700.3	5986.27	5987.92	3.346	Th	I	L
16692.5	5989.04	5990.7	4.341	Th	II	L
16680.1	5993.49	5995.15	3.019	Th	I	L
16671.4	5996.63	5998.29	3.553	Th	I	L
16658.7	6001.2	6002.87	4.001	Th	I	L
16642.4	6007.07	6008.74	4.217	Th	I	L
16624.2	6013.68	6015.34	3.146	Ar	I	L
16619.3	6015.42	6017.09	3.399	Th	II	L
16609.5	6019	6020.66	2.728	Th	II	L
16602.8	6021.41	6023.08	2.797	Th	II	L
16592.5	6025.15	6026.82	3.47	Ar	I	L
16581.3	6029.23	6030.9	3.006	Th	I	L
16577.9	6030.44	6032.11	4.051	Th	I	L
16564.9	6035.19	6036.86	3.508	Th	I	L
16555.3	6038.68	6040.35	3.927	Th	I	L
16532.8	6046.9	6048.57	3.079	Ar	II	L
16521.7	6050.98	6052.66	3.569	Th	I	L
16515.1	6053.38	6055.06	4.067	Th	I	L
16502	6058.18	6059.86	2.808	Th	II	L
16472.6	6069.02	6070.7	3.69	Th	I	L
16450.6	6077.11	6078.79	3.812	Th	I	L
16447.1	6078.42	6080.1	3.728	Th	I	L
16424.7	6086.7	6088.39	2.272	Th	I	L
16421.1	6088.03	6089.72	4.435	Th	I	L
16414.6	6090.45	6092.13	2.833	Th	I	L
16392.1	6098.8	6100.49	3.695	Ar	I	L
16388.9	6099.99	6101.68	2.607	Th	I	L
16384.3	6101.73	6103.41	4.051	Th	I	L
16373.8	6105.64	6107.33	3.722	Ar	I	L
16352.8	6113.47	6115.16	2.824	Ar	I	L
16333.9	6120.56	6122.25	3.416	Th	II	L
16325.122	6123.83	6125.53	3.471	Th	I	L
16320	6125.74	6127.43	2.819	Th	II	L
16287.6	6137.93	6139.63	3.093	Th	I	L
16253.9	6150.68	6152.39	3.378	Th	I	L
16244.9	6154.07	6155.77	3.878	Th	I	L
16241.8	6155.24	6156.94	3.518	Ar	I	L
16225.7	6161.35	6163.06	3.853	Th	I	L
16209.2	6167.63	6169.33	2.154	Ar	II	L
16180.9	6178.43	6180.14	4.19	Th	I	L
16158.1	6187.14	6188.85	2.73	Ar	II	L
16140.6	6193.86	6195.57	3.307	Th	II	L
16123.4	6200.43	6202.15	3.47	Th	II	L
16104.4	6207.75	6209.47	2.917	Th	I	L
16098.7	6209.95	6211.67	2.406	Th	I	L
16072.7	6220.01	6221.73	3.889	Th	I	L
16056.3	6226.37	6228.09	4.248	Th	I	L
16021.9	6239.71	6241.44	2.842	Ar	II	L
16018.8	6240.95	6242.68	3.786	Th	I	L
16008.3	6245.04	6246.77	2.966	Th	II	L
15999.7	6248.41	6250.13	3.082	Ar	I	L
15976.6	6257.42	6259.15	4.212	Th	I	L
15969.5	6260.22	6261.95	2.686	Th	I	L
15958	6264.71	6266.45	2.756	Th	I	L
15940.6	6271.55	6273.28	3.962	Th	I	L
15928.894	6276.16	6277.9	3.571	Th	I	L
15921.3	6279.16	6280.9	3.343	Th	II	L
15905.8	6285.28	6287.02	3.379	Th	II	L
15895.2	6289.49	6291.23	3.046	Th	II	L
15886.6	6292.89	6294.63	3.652	Th	I	L
15876.5	6296.87	6298.61	3.731	Ar	I	L
15866.3	6300.92	6302.66	3.759	Th	I	L
15860.4	6303.25	6304.99	3.716	Th	I	L
15849.4	6307.66	6309.4	3.75	Ar	I	L
15841.4	6310.81	6312.56	3.825	Th	I	L
15829	6315.77	6317.52	3.933	Th	I	L
15813.9	6321.82	6323.57	3.276	Th	I	L
15789.9	6331.41	6333.16	3.443	Th	I	L
15779.2	6335.7	6337.45	2.851	Th	I	L
15770.2	6339.31	6341.06	3.0	Th	I	L
15753.3	6346.12	6347.88	3.465	Th	I	L
15729.7	6355.63	6357.39	3.652	Th	I	L
15726.3	6357.02	6358.78	2.94	Ar	II	L
15721.072	6359.13	6360.89	2.851	Th	II	L
15695.3	6369.58	6371.34	3.69	Ar	I	L
15688.2	6372.46	6374.22	2.621	Th	I	L
15670.5	6379.67	6381.44	3.335	Th	I	L
15665.3	6381.76	6383.52	2.666	Th	I	L
15648	6388.81	6390.58	3.573	Th	I	L
15639.3	6392.37	6394.14	2.822	Th	I	L
15628.1	6396.95	6398.72	3.247	Th	I	L
15619	6400.7	6402.47	3.799	Th	I	L
15599	6408.9	6410.68	2.999	Ar	II	L
15582.9	6415.54	6417.31	3.027	Th	I	L
15565	6422.9	6424.67	3.149	Ar	II	L
15550.8	6428.77	6430.55	3.082	Th	I	L
15519.1	6441.9	6443.68	3.303	Ar	II	L
15507.4	6446.77	6448.55	3.699	Th	I	L
15494.6	6452.06	6453.84	2.857	Th	I	L
15474.5	6460.47	6462.26	3.243	Th	I	L
15448.8	6471.21	6473	3.284	Th	II	L
15439	6475.32	6477.11	2.338	Ar	II	L
15410	6487.48	6489.27	3.325	Th	I	L
15402.3	6490.74	6492.53	4.369	Th	I	L
15391.6	6495.26	6497.05	2.925	Th	I	L
15378.8	6500.66	6502.45	2.861	Th	I	L
15375.7	6501.99	6503.79	3.808	Th	I	L
15363.9	6506.99	6508.78	3.861	Th	I	L
15328.4	6522.04	6523.84	3.918	Th	I	L
15281.5	6542.05	6543.86	3.063	Th	I	L
15261.7	6550.55	6552.36	2.677	Th	II	L
15242.3	6558.88	6560.69	4.014	Th	I	L
15227.9	6565.07	6566.88	3.271	Th	I	L
15202.3	6576.12	6577.94	3.413	Th	I	L
15194.6	6579.48	6581.3	2.651	Th	I	L
15182.7	6584.61	6586.43	3.691	Th	I	L
15162.4	6593.46	6595.28	3.765	Th	I	L
15150.4	6598.68	6600.5	2.86	Ar	I	L
15145.654	6600.73	6602.55	2.812	Th	I	L
15139	6603.62	6605.44	3.103	Th	I	L
15134.9	6605.42	6607.24	4.101	Th	II	L
15108.3	6617.06	6618.89	3.363	Th	II	L
15105.8	6618.16	6619.99	3.715	Th	I	L
15074.1	6632.08	6633.92	3.164	Ar	I	L
15058.6	6638.91	6640.75	4.118	Th	I	L
15041.3	6646.54	6648.38	3.486	Th	II	L
15035.799	6648.96	6650.79	3.421	Th	II	L
15021	6655.49	6657.33	2.821	Th	I	L
15009.3	6660.68	6662.52	3.755	Ar	I	L
15001.7	6664.05	6665.89	3.809	Ar	I	L
14980.3	6673.58	6675.42	3.442	Th	I	L
14968.8	6678.71	6680.55	4.154	Th	I	L
14958.4	6683.37	6685.21	4.102	Th	I	L
14937.5	6692.73	6694.57	3.578	Th	II	L
14933.5	6694.5	6696.34	3.211	Th	I	L
14923.8	6698.87	6700.72	3.819	Ar	I	L
14896.2	6711.25	6713.1	3.897	Th	I	L
14887.5	6715.19	6717.04	3.087	Th	II	L
14870.4	6722.89	6724.75	2.834	Ar	I	L
14858.9	6728.12	6729.98	3.704	Th	I	L
14854.9	6729.93	6731.79	3.018	Th	I	L
14848.9	6732.65	6734.51	3.353	Th	I	L
14843.434	6735.13	6736.99	3.07	Th	I	L
14828.5	6741.92	6743.78	2.762	Th	I	L
14826.4	6742.88	6744.75	3.539	Th	I	L
14812.2	6749.32	6751.18	2.372	Th	I	L
14802.7	6753.66	6755.52	3.652	Th	I	L
14792.7	6758.2	6760.07	3.447	Th	I	L
14748.862	6778.31	6780.18	4.507	Th	I	L
14744.9	6780.13	6782	4.472	Th	I	L
14726	6788.84	6790.71	4.181	Th	I	L
14710.9	6795.8	6797.67	2.688	Th	I	L
14700.8	6800.47	6802.34	2.718	Th	I	L
14686	6807.32	6809.2	2.907	Th	I	L
14679	6810.55	6812.43	3.268	Th	II	L
14668.1	6815.61	6817.49	2.825	Th	I	L
14648.7	6824.68	6826.56	4.336	Th	I	L
14639.3	6829.04	6830.92	4.617	Th	I	L
14624.6	6835.91	6837.8	2.721	Th	I	L
14617.4	6839.29	6841.18	2.779	Th	I	L
14589.5	6852.35	6854.25	2.925	Th	I	L
14584.9	6854.51	6856.4	2.883	Th	II	L
14582.4	6855.69	6857.58	3.025	Th	I	L
14565.7	6863.54	6865.43	3.646	Ar	II	L
14555.3	6868.45	6870.35	3.898	Th	I	L
14531.8	6879.58	6881.48	3.88	Ar	I	L
14515.9	6887.09	6888.99	3.839	Ar	I	L
14505	6892.25	6894.15	3.166	Th	I	L
14457.9	6914.71	6916.62	2.233	Th	I	P
14446.8	6920.04	6921.95	2.424	Th	I	P
14412.2	6936.65	6938.57	2.547	Th	I	P
14400	6942.54	6944.45	2.886	Th	I	P
14393.9	6945.49	6947.41	3.134	Th	I	P
14381.5	6951.48	6953.39	3.812	Ar	I	N
14374.9	6954.66	6956.57	2.726	Th	I	P
14363.3	6960.25	6962.17	3.812	Ar	I	N
14302.9	6989.66	6991.58	4.541	Th	I	P
14296.7	6992.7	6994.63	2.074	Th	II	P
14294.1	6993.99	6995.92	2.083	Th	I	P
14280.1	7000.8	7002.73	3.911	Th	I	P
14267.3	7007.1	7009.03	2.292	Th	I	P
14244	7018.57	7020.5	3.82	Th	I	P
14238.5	7021.28	7023.22	2.688	Th	I	P
14230.496	7025.22	7027.16	2.912	Ar	I	N
14224.8	7028.02	7029.96	2.34	Th	I	P
14214.903	7032.93	7034.87	2.663	Th	I	P
14208.1	7036.28	7038.22	3.255	Th	I	P
14188.9	7045.8	7047.74	2.846	Th	II	P
14161.4	7059.53	7061.47	2.531	Th	I	P
14157.6	7061.39	7063.34	2.751	Th	I	P
14142.9	7068.74	7070.68	5.022	Ar	I	N
14137.4	7071.48	7073.43	2.444	Th	I	P
14131.865	7074.26	7076.21	2.09	Th	I	P
14112.1	7084.17	7086.12	4.158	Th	I	P
14101.8	7089.34	7091.29	2.664	Th	II	P
14075.5	7102.59	7104.55	2.245	Th	I	P
14061.1	7109.86	7111.82	2.574	Th	I	P
14052.9	7113.99	7115.95	1.932	Th	II	P
14032.1	7124.56	7126.52	3.78	Th	I	P
14020	7130.72	7132.69	2.853	Th	I	P
14000.8	7140.46	7142.43	2.101	Th	II	P
13981.6	7150.28	7152.26	3.541	Th	I	P
13964.9	7158.84	7160.81	4.112	Ar	I	N
13949.348	7166.82	7168.79	1.989	Th	I	P
13945.307	7168.9	7170.87	4.381	Th	I	P
13936.603	7173.37	7175.35	3.424	Th	I	P
13930.1	7176.72	7178.7	2.276	Th	II	P
13907.2	7188.53	7190.51	2.571	Th	I	P
13885	7200.05	7202.03	3.397	Th	I	P
13880.2	7202.52	7204.5	2.762	Ar	I	N
13871.6	7206.98	7208.97	4.872	Ar	I	N
13860.6	7212.69	7214.68	3.64	Th	I	P
13844.7	7220.98	7222.97	2.402	Th	I	P
13825.8	7230.86	7232.85	3.053	Th	I	P
13807.997	7240.18	7242.18	2.491	Th	I	P
13799.4	7244.7	7246.69	3.348	Th	I	P
13788.2	7250.59	7252.59	1.823	Th	II	P
13779.1	7255.35	7257.35	2.911	Th	I	P
13760.5	7265.17	7267.17	4.112	Ar	I	N
13722.2	7285.44	7287.45	3.512	Ar	I	N
13698.3	7298.14	7300.15	2.666	Th	I	P
13666.7	7315.07	7317.08	2.655	Th	I	P
13651.5	7323.21	7325.23	2.382	Th	I	P
13641.999	7328.29	7330.3	3.579	Th	I	P
13628.4	7335.58	7337.6	1.995	Th	II	P
13618.1	7341.15	7343.17	3.559	Th	I	P
13608.5	7346.34	7348.37	1.839	Th	II	P
13605.3	7348.05	7350.08	2.263	Ar	II	W
13595.6	7353.29	7355.32	4.872	Ar	I	N
13580.7	7361.35	7363.38	2.547	Th	I	P
13563.3	7370.83	7372.86	2.369	Th	I	P
13552.1	7376.88	7378.91	3.372	Th	I	P
13545.6	7380.42	7382.46	2.703	Ar	II	W
13521.8	7393.44	7395.47	3.005	Th	II	P
13487.308	7412.34	7414.38	4.112	Ar	I	N
13476	7418.55	7420.59	3.145	Th	I	P
13463.8	7425.29	7427.34	3.962	Ar	I	N
13454.8	7430.25	7432.3	3.613	Th	I	P
13443.9	7436.3	7438.34	3.962	Ar	I	N
13430.2	7443.88	7445.93	2.027	Th	I	P
13423	7447.85	7449.9	3.195	Th	I	P
13403.4	7458.75	7460.81	2.266	Th	I	P
13395.8	7462.99	7465.05	2.011	Th	I	P
13381.1	7471.16	7473.22	3.512	Ar	I	N
13358.8	7483.63	7485.69	3.278	Th	I	P
13351.1	7487.97	7490.04	2.925	Th	I	P
13331.4	7499	7501.07	2.524	Th	I	P
13314.6	7508.48	7510.55	2.851	Th	I	P
13309.5	7511.35	7513.42	2.294	Th	II	P
13284.5	7525.51	7527.58	3.191	Th	II	P
13279.2	7528.49	7530.56	2.002	Th	II	P
13273.4	7531.81	7533.89	2.334	Th	I	P
13242.6	7549.31	7551.39	3.534	Th	I	P
13227.8	7557.75	7559.83	2.273	Th	I	P
13212.5	7566.53	7568.61	2.382	Th	II	P
13200.6	7573.34	7575.43	2.514	Th	I	P
13187.8	7580.69	7582.78	2.256	Th	I	P
13172.8	7589.32	7591.4	2.923	Ar	II	W
13148	7603.62	7605.72	2.284	Th	I	P
13125.5	7616.68	7618.78	2.157	Th	I	P
13119.6	7620.08	7622.17	2.852	Th	I	P
13109.9	7625.71	7627.8	3.378	Th	I	P
13104.5	7628.88	7630.98	2.912	Ar	I	N
13072.8	7647.38	7649.48	4.25	Th	I	P
13065.3	7651.75	7653.85	2.638	Th	I	P
13061.8	7653.83	7655.94	3.455	Th	I	P
13051.198	7660.02	7662.13	2.303	Th	I	P
13040.057	7666.57	7668.68	2.752	Th	I	P
13034.1	7670.06	7672.17	3.062	Ar	I	N
13023.7	7676.22	7678.33	2.269	Th	II	P
13008.3	7685.31	7687.42	2.8	Th	II	P
12981.6	7701.11	7703.23	2.047	Th	II	P
12975.3	7704.82	7706.94	2.612	Ar	I	N
12964.7	7711.12	7713.25	2.33	Th	I	P
12960	7713.94	7716.06	2.835	Th	I	P
12930.1	7731.74	7733.87	2.445	Th	II	P
12880.2	7761.71	7763.85	2.199	Th	I	P
12863.2	7771.95	7774.09	3.14	Th	I	P
12852.4	7778.49	7780.63	2.603	Th	I	P
12835.2	7788.93	7791.08	3.957	Th	I	P
12824.5	7795.42	7797.56	1.393	Ar	II	N
12804.1	7807.88	7810.02	2.313	Th	I	P
12793.5	7814.32	7816.47	2.462	Ar	I	N
12787.9	7817.77	7819.92	4.232	Th	I	P
12760.6	7834.46	7836.61	2.493	Th	II	P
12757.4	7836.46	7838.62	2.762	Th	I	P
12747.9	7842.27	7844.42	2.837	Th	I	P
12737.9	7848.45	7850.61	3.097	Th	I	P
12712.6	7864.02	7866.19	2.589	Th	I	P
12709.494	7865.97	7868.13	3.715	Th	I	P
12694.2	7875.46	7877.63	1.941	Th	II	P
12669.1	7891.07	7893.25	3.962	Ar	I	N
12654.2	7900.32	7902.49	3.445	Th	I	P
12614.8	7924.99	7927.17	2.414	Th	I	P
12594.6	7937.73	7939.92	3.201	Th	I	P
12567.9	7954.59	7956.78	2.88	Th	I	P
12556.2	7961.98	7964.17	2.531	Th	I	P
12539.517	7972.6	7974.79	3.277	Th	I	P
12525.3	7981.68	7983.87	1.863	Th	II	P
12515.4	7987.97	7990.17	3.35	Th	I	P
12508.8	7992.16	7994.36	2.352	Th	I	P
12493.1	8002.19	8004.39	2.028	Th	I	P
12456.5	8025.73	8027.93	2.748	Th	I	P
12446.1	8032.43	8034.64	3.788	Th	I	P
12424.9	8046.12	8048.33	3.212	Ar	I	N
12411.952	8054.54	8056.75	1.876	Th	II	P
12390.1	8068.74	8070.96	1.79	Th	I	P
12364.8	8085.22	8087.44	3.306	Th	I	P
12351.3	8094.06	8096.28	2.912	Ar	I	N
12307.8	8122.72	8124.96	3.176	Th	I	P
12284.75	8137.94	8140.17	2.68	Th	I	P
12276.9	8143.14	8145.38	4.122	Th	I	P
12251.9	8159.73	8161.97	3.821	Th	I	P
12246.8	8163.12	8165.37	2.365	Th	II	P
12236.9	8169.79	8172.03	3.49	Th	I	P
12211.3	8186.91	8189.16	4.063	Th	I	P
12194.1	8198.44	8200.7	2.089	Th	I	P
12184.176	8205.11	8207.37	2.173	Th	I	P
12170.8	8214.15	8216.41	2.847	Th	I	P
12145.3	8231.41	8233.67	2.959	Th	I	P
12140	8234.94	8237.2	2.303	Th	I	P
12114.4	8252.39	8254.66	3.404	Th	I	P
12103.9	8259.51	8261.78	2.66	Th	I	P
12080.4	8275.63	8277.9	3.874	Th	I	P
12070.7	8282.25	8284.53	1.663	Th	II	P
12055.7	8292.53	8294.81	2.827	Th	I	P
12024.5	8314.08	8316.36	1.873	Th	I	P
12014.693	8320.86	8323.14	3.969	Th	I	P
12002.9	8329	8331.29	2.114	Th	I	P
11996.6	8333.43	8335.72	2.151	Th	I	P
11985	8341.48	8343.77	2.524	Th	I	P
11978.7	8345.87	8348.16	2.193	Th	I	P
11957.733	8360.49	8362.79	2.343	Th	I	P
11949.8	8366.07	8368.37	2.984	Th	I	P
11931	8379.23	8381.53	2.514	Th	I	P
11923.2	8384.72	8387.03	3.212	Ar	I	N
11919.8	8387.11	8389.41	2.309	Th	II	P
11907.6	8395.72	8398.03	1.963	Ar	II	W
11880.3	8414.95	8417.27	1.933	Th	I	P
11876	8418	8420.31	3.705	Th	I	P
11837.4	8445.49	8447.81	3.803	Th	I	P
11824.2	8454.93	8457.25	2.191	Th	I	P
11811.2	8464.24	8466.56	3.345	Th	I	P
11809.2	8465.67	8468	2.723	Th	I	P
11799.5	8472.6	8474.93	2.249	Th	I	P
11746.8	8510.62	8512.96	3.273	Th	I	P
11738.6	8516.55	8518.89	3.367	Th	I	P
11718.1	8531.45	8533.79	2.247	Th	I	P
11713.7	8534.68	8537.02	2.233	Th	I	P
11685.9	8554.94	8557.29	3.327	Th	I	P
11673.386	8564.14	8566.49	2.161	Th	I	P
11661.2	8573.12	8575.48	3.885	Th	I	P
11655.5	8577.28	8579.63	3.006	Th	I	P
11634	8593.11	8595.47	2.856	Th	I	P
11619.3	8604.02	8606.38	1.933	Ar	II	W
11602.8	8616.22	8618.59	2.898	Th	I	P
11596	8621.32	8623.69	2.132	Th	I	P
11592.6	8623.8	8626.17	1.893	Ar	II	W
11582.5	8631.36	8633.73	2.261	Th	I	P
11571.6	8639.44	8641.81	3.307	Th	I	P
11558.7	8649.15	8651.52	2.6	Th	I	P
11519.687	8678.41	8680.79	2.612	Ar	I	N
11507.2	8687.85	8690.23	2.678	Th	I	P
11500.2	8693.09	8695.48	1.393	Ar	II	N
11489.6	8701.12	8703.51	2.466	Th	I	P
11484.7	8704.86	8707.25	2.286	Th	I	P
11478.9	8709.23	8711.63	3.413	Th	I	P
11472.3	8714.27	8716.66	1.919	Th	I	P
11462.6	8721.66	8724.05	2.061	Th	II	P
11459.9	8723.72	8726.11	2.243	Th	I	P
11448.4	8732.42	8734.82	3.213	Th	I	P
11434.2	8743.25	8745.66	1.976	Th	I	P
11423.9	8751.21	8753.61	2.371	Th	I	P
11414.7	8758.24	8760.65	3.886	Th	I	P
11410.2	8761.69	8764.09	3.512	Ar	I	N
11397	8771.86	8774.27	3.263	Ar	II	W
11394.789	8773.53	8775.94	2.15	Th	I	P
11382.9	8782.72	8785.13	2.345	Th	I	P
11362.9	8798.17	8800.59	2.536	Th	I	P
11354.6	8804.59	8807.01	3.037	Th	I	P
11344.4	8812.51	8814.93	2.275	Th	I	P
11337.7	8817.74	8820.16	2.295	Th	I	P
11322.312	8829.69	8832.12	2.433	Th	I	P
11297.2	8849.32	8851.74	2.595	Th	I	P
11290.1	8854.91	8857.34	2.609	Th	I	P
11272.3	8868.83	8871.27	3.714	Th	I	P
11264.2	8875.23	8877.67	2.848	Th	I	P
11246.5	8889.19	8891.63	2.898	Th	I	P
11241	8893.54	8895.98	2.611	Th	I	P
11225.7	8905.66	8908.1	2.893	Ar	II	W
11197.5	8928.09	8930.54	2.614	Th	I	P
11171.2	8949.12	8951.58	3.175	Th	I	P
11160.2	8957.99	8960.45	2.311	Th	II	P
11148.145	8967.64	8970.1	4.301	Th	I	P
11145.378	8969.87	8972.33	3.201	Th	I	P
11124.6	8986.62	8989.08	2.843	Ar	II	W
11114	8995.19	8997.66	2.726	Th	I	P
11097.634	9008.46	9010.93	3.003	Ar	II	W
11093.9	9011.52	9013.99	1.976	Th	I	P
11087.6	9016.59	9019.07	3.457	Th	I	P
11068.9	9031.82	9034.3	3.096	Th	I	P
11061.5	9037.89	9040.37	3.098	Th	I	P
11052.4	9045.35	9047.84	3.227	Th	I	P
11033.6	9060.75	9063.23	2.763	Ar	II	W
11029.7	9063.96	9066.45	3.402	Th	I	P
11024.7	9068.02	9070.51	2.703	Ar	II	W
11015.8	9075.39	9077.89	4.262	Ar	I	N
10997.091	9090.82	9093.31	3.004	Th	I	P
10984.7	9101.08	9103.58	2.384	Th	I	P
10977.3	9107.23	9109.73	2.882	Th	I	P
10947.2	9132.27	9134.78	2.612	Th	I	P
10921.9	9153.37	9155.88	1.974	Th	I	P
10915.2	9159.03	9161.55	2.283	Ar	II	W
10907	9165.89	9168.41	3.419	Th	I	P
10891.7	9178.78	9181.3	3.061	Th	I	P
10881.29	9187.57	9190.09	2.513	Th	I	P
10867	9199.68	9202.21	2.651	Th	I	P
10856.457	9208.58	9211.11	2.653	Th	I	P
10844.2	9218.99	9221.52	2.643	Ar	II	W
10828.3	9232.5	9235.03	2.757	Th	I	P
10826.7	9233.86	9236.39	2.827	Th	I	P
10819.3	9240.22	9242.75	1.735	Th	I	P
10807.954	9249.91	9252.45	2.031	Th	I	P
10797.606	9258.77	9261.31	2.063	Ar	II	W
10788.9	9266.21	9268.75	3.952	Th	I	P
10784.4	9270.15	9272.69	2.939	Th	I	P
10779	9274.72	9277.26	1.286	Th	II	P
10773.2	9279.71	9282.26	2.483	Ar	II	W
10761.8	9289.56	9292.11	3.804	Th	I	P
10755.6	9294.97	9297.52	2.571	Th	I	P
10740.6	9307.9	9310.45	3.255	Th	I	P
10729.3	9317.73	9320.29	2.956	Th	I	P
10658.4	9379.73	9382.3	1.971	Th	I	P
10654.3	9383.27	9385.85	3.509	Th	I	P
10647.9	9388.93	9391.51	3.168	Th	I	P
10642.427	9393.78	9396.35	1.237	Th	II	P
10619.5	9414.09	9416.67	2.613	Th	I	P
10599.7	9431.6	9434.19	3.364	Th	I	P
10594.5	9436.23	9438.82	2.183	Ar	II	W
10573.3	9455.2	9457.8	2.565	Th	I	P
10556.006	9470.68	9473.28	3.753	Th	I	P
10547.5	9478.33	9480.93	3.169	Ar	I	W
10528.4	9495.5	9498.1	4.069	Th	I	P
10517.5	9505.39	9508	3.485	Th	I	P
10514.1	9508.45	9511.06	1.533	Ar	II	N
10483.254	9536.41	9539.02	2.218	Th	I	P
10456	9561.25	9563.87	3.626	Th	I	P
10449.4	9567.28	9569.9	2.283	Th	I	P
10446	9570.4	9573.03	2.014	Th	I	P
10438.4	9577.35	9579.97	2.025	Th	II	P
10411.7	9601.93	9604.56	3.103	Ar	II	W
10404.6	9608.49	9611.12	2.703	Th	I	P
10392.6	9619.58	9622.22	2.813	Ar	II	W
10386.5	9625.2	9627.84	2.75	Th	I	P
10381.833	9629.57	9632.21	3.551	Th	I	P
10369.3	9641.19	9643.84	2.243	Ar	II	W
10344.1	9664.7	9667.35	3.821	Th	I	P
10329	9678.81	9681.46	2.763	Ar	II	W
10322.6	9684.8	9687.46	1.766	Th	I	P
10305.9	9700.56	9703.22	4.019	Th	I	P
10289.3	9716.14	9718.81	2.325	Th	I	P
10264.4	9739.77	9742.44	2.503	Ar	II	W
10253.5	9750.13	9752.81	2.773	Ar	II	W
10247.1	9756.14	9758.82	2.993	Ar	II	W
10244.5	9758.64	9761.31	3.093	Ar	II	W
10228.9	9773.57	9776.25	3.113	Ar	II	W
10208.3	9793.23	9795.92	2.513	Ar	II	W
10204.2	9797.25	9799.93	2.141	Th	I	P
10200.3	9800.93	9803.61	2.289	Ar	I	W
10188.1	9812.7	9815.39	3.945	Th	I	P
10181.36	9819.18	9821.87	2.131	Th	I	P
10173.8	9826.45	9829.14	4.324	Th	I	P
10158.9	9840.92	9843.62	2.072	Th	I	P
10145.3	9854.06	9856.76	3.173	Ar	II	W
10134.5	9864.6	9867.3	1.951	Th	II	P
10131.1	9867.89	9870.6	2.345	Th	I	P
10126.9	9871.99	9874.7	2.394	Th	I	P
10120.2	9878.52	9881.23	1.475	Th	II	P
10102.3	9896.05	9898.76	2.779	Th	I	P
10095.8	9902.36	9905.07	2.848	Th	I	P
10091.7	9906.39	9909.11	2.903	Ar	II	W
10085.8	9912.2	9914.92	2.258	Th	I	P
10058.8	9938.84	9941.56	2.241	Th	I	P
10048.4	9949.15	9951.88	2.893	Ar	II	W
10045.1	9952.37	9955.1	2.811	Th	I	P
10030.3	9967.04	9969.78	3.013	Ar	II	W
10025	9972.33	9975.07	2.023	Ar	II	W
10012.2	9985.05	9987.79	3.455	Th	I	P
10007.3	9989.94	9992.68	2.277	Th	I	P
10004.6	9992.65	9995.39	2.505	Th	I	P
9985.88	10011.4	10014.1	2.491	Th	I	P
9958.06	10039.4	10042.1	3.764	Th	I	P
9949.47	10048	10050.8	2.67	Th	I	P
9941.38	10056.2	10059	2.318	Th	I	P
9895.75	10102.6	10105.3	2.235	Th	I	P
9871.35	10127.5	10130.3	1.823	Th	I	P
9861.77	10137.4	10140.2	2.33	Th	I	P
9857.87	10141.4	10144.2	3.619	Th	I	P
9836.55	10163.4	10166.2	3.859	Ar	I	W
9821.92	10178.5	10181.3	3.234	Th	I	P
9816.11	10184.5	10187.3	2.303	Th	I	P
9790.17	10211.5	10214.3	2.372	Th	I	P
9766.74	10236	10238.8	2.985	Th	I	P
9722.01	10283.1	10285.9	3.012	Th	I	P
9698.033	10308.5	10311.4	3.327	Th	I	P
9673.28	10334.9	10337.8	2.314	Th	I	P
9660.077	10349	10351.9	3.118	Th	I	P
9594.69	10419.6	10422.4	2.798	Th	II	P
9548.43	10470.1	10472.9	6.222	Ar	I	N
9528.23	10492.3	10495.1	3.438	Th	I	P
9522.57	10498.5	10501.4	3.387	Th	I	P
9515.31	10506.5	10509.4	4.539	Ar	I	W